  STEP   TOTAL TIME             LOCATION OF OBSERVATION POINTS (K,I,J)
                      1  16  16
     1    2.5000        3.7935    
     1    5.0000        7.4273    
     1    7.5000        10.908    
     1    10.000        14.243    
     1    12.500        17.438    
     1    15.000        20.499    
     1    17.500        23.431    
     1    20.000        26.242    
     1    22.500        28.935    
     1    25.000        31.515    
     1    27.500        33.989    
     1    30.000        36.359    
     1    32.500        38.631    
     1    35.000        40.809    
     1    37.500        42.897    
     1    40.000        44.899    
     1    42.500        46.818    
     1    45.000        48.658    
     1    47.500        50.423    
     1    50.000        52.115    
     1    52.500        53.738    
     1    55.000        55.295    
     1    57.500        56.789    
     1    60.000        58.222    
     1    62.500        59.597    
     1    65.000        60.916    
     1    67.500        62.182    
     1    70.000        63.397    
     1    72.500        64.564    
     1    75.000        65.684    
     1    77.500        66.759    
     1    80.000        67.791    
     1    82.500        68.783    
     1    85.000        69.735    
     1    87.500        70.650    
     1    90.000        71.529    
     1    92.500        72.374    
     1    95.000        73.185    
     1    97.500        73.965    
     1    100.00        74.715    
     1    102.50        75.436    
     1    105.00        76.130    
     1    107.50        76.797    
     1    110.00        77.438    
     1    112.50        78.055    
     1    115.00        78.649    
     1    117.50        79.221    
     1    120.00        79.771    
     1    122.50        80.301    
     1    125.00        80.811    
     1    127.50        81.302    
     1    130.00        81.775    
     1    132.50        82.231    
     1    135.00        82.670    
     1    137.50        83.094    
     1    140.00        83.502    
     1    142.50        83.896    
     1    145.00        84.276    
     1    147.50        84.642    
     1    150.00        84.996    
     1    152.50        85.337    
     1    155.00        85.666    
     1    157.50        85.984    
     1    160.00        86.292    
     1    162.50        86.588    
     1    165.00        86.875    
     1    167.50        87.152    
     1    170.00        87.420    
     1    172.50        87.680    
     1    175.00        87.930    
     1    177.50        88.173    
     1    180.00        88.408    
     1    182.50        88.635    
     1    185.00        88.855    
     1    187.50        89.069    
     1    190.00        89.275    
     1    192.50        89.476    
     1    195.00        89.670    
     1    197.50        89.858    
     1    200.00        90.041    
     1    202.50        90.218    
     1    205.00        90.390    
     1    207.50        90.557    
     1    210.00        90.719    
     1    212.50        90.877    
     1    215.00        91.030    
     1    217.50        91.179    
     1    220.00        91.323    
     1    222.50        91.464    
     1    225.00        91.601    
     1    227.50        91.734    
     1    230.00        91.864    
     1    232.50        91.990    
     1    235.00        92.114    
     1    237.50        92.234    
     1    240.00        92.350    
     1    242.50        92.464    
     1    245.00        92.576    
     1    247.50        92.684    
     1    250.00        92.790    
     1    252.50        92.893    
     1    255.00        92.994    
     1    257.50        93.093    
     1    260.00        93.189    
     1    262.50        93.283    
     1    265.00        93.375    
     1    267.50        93.465    
     1    270.00        93.553    
     1    272.50        93.639    
     1    275.00        93.723    
     1    277.50        93.806    
     1    280.00        93.887    
     1    282.50        93.966    
     1    285.00        94.043    
     1    287.50        94.119    
     1    290.00        94.194    
     1    292.50        94.267    
     1    295.00        94.338    
     1    297.50        94.409    
     1    300.00        94.477    
     1    302.50        94.545    
     1    305.00        94.611    
     1    307.50        94.677    
     1    310.00        94.741    
     1    312.50        94.804    
     1    315.00        94.865    
     1    317.50        94.926    
     1    320.00        94.986    
     1    322.50        95.045    
     1    325.00        95.102    
     1    327.50        95.159    
     1    330.00        95.215    
     1    332.50        95.270    
     1    335.00        95.324    
     1    337.50        95.377    
     1    340.00        95.430    
     1    342.50        95.481    
     1    345.00        95.532    
     1    347.50        95.582    
     1    350.00        95.631    
     1    352.50        95.680    
     1    355.00        95.728    
     1    357.50        95.775    
     1    360.00        95.822    
     1    362.50        95.867    
     1    365.00        95.913    
     1    367.50        95.957    
     1    370.00        96.001    
     1    372.50        96.045    
     1    375.00        96.087    
     1    377.50        96.130    
     1    380.00        96.171    
     1    382.50        96.213    
     1    385.00        96.253    
     1    387.50        96.293    
     1    390.00        96.333    
     1    392.50        96.372    
     1    395.00        96.410    
     1    397.50        96.449    
     1    400.00        96.486    
     1    402.50        96.523    
     1    405.00        96.560    
     1    407.50        96.596    
     1    410.00        96.632    
     1    412.50        96.668    
     1    415.00        96.703    
     1    417.50        96.737    
     1    420.00        96.771    
     1    422.50        96.805    
     1    425.00        96.839    
     1    427.50        96.872    
     1    430.00        96.904    
     1    432.50        96.937    
     1    435.00        96.969    
     1    437.50        97.000    
     1    440.00        97.031    
     1    442.50        97.062    
     1    445.00        97.093    
     1    447.50        97.123    
     1    450.00        97.153    
     1    452.50        97.182    
     1    455.00        97.212    
     1    457.50        97.240    
     1    460.00        97.269    
     1    462.50        97.297    
     1    465.00        97.325    
     1    467.50        97.353    
     1    470.00        97.380    
     1    472.50        97.408    
     1    475.00        97.434    
     1    477.50        97.461    
     1    480.00        97.487    
     1    482.50        97.513    
     1    485.00        97.539    
     1    487.50        97.565    
     1    490.00        97.590    
     1    492.50        97.615    
     1    495.00        97.639    
     1    497.50        97.664    
     1    500.00        97.688    
     1    502.50        97.712    
     1    505.00        97.736    
     1    507.50        97.759    
     1    510.00        97.783    
     1    512.50        97.806    
     1    515.00        97.828    
     1    517.50        97.851    
     1    520.00        97.873    
     1    522.50        97.896    
     1    525.00        97.917    
     1    527.50        97.939    
     1    530.00        97.961    
     1    532.50        97.982    
     1    535.00        98.003    
     1    537.50        98.024    
     1    540.00        98.045    
     1    542.50        98.065    
     1    545.00        98.085    
     1    547.50        98.105    
     1    550.00        98.125    
     1    552.50        98.145    
     1    555.00        98.165    
     1    557.50        98.184    
     1    560.00        98.203    
     1    562.50        98.222    
     1    565.00        98.241    
     1    567.50        98.259    
     1    570.00        98.278    
     1    572.50        98.296    
     1    575.00        98.314    
     1    577.50        98.332    
     1    580.00        98.350    
     1    582.50        98.367    
     1    585.00        98.385    
     1    587.50        98.402    
     1    590.00        98.419    
     1    592.50        98.436    
     1    595.00        98.453    
     1    597.50        98.469    
     1    600.00        98.486    
     1    602.50        98.502    
     1    605.00        98.518    
     1    607.50        98.534    
     1    610.00        98.550    
     1    612.50        98.566    
     1    615.00        98.581    
     1    617.50        98.596    
     1    620.00        98.612    
     1    622.50        98.627    
     1    625.00        98.642    
     1    627.50        98.657    
     1    630.00        98.671    
     1    632.50        98.686    
     1    635.00        98.700    
     1    637.50        98.715    
     1    640.00        98.729    
     1    642.50        98.743    
     1    645.00        98.757    
     1    647.50        98.770    
     1    650.00        98.784    
     1    652.50        98.798    
     1    655.00        98.811    
     1    657.50        98.824    
     1    660.00        98.837    
     1    662.50        98.850    
     1    665.00        98.863    
     1    667.50        98.876    
     1    670.00        98.889    
     1    672.50        98.901    
     1    675.00        98.914    
     1    677.50        98.926    
     1    680.00        98.938    
     1    682.50        98.950    
     1    685.00        98.962    
     1    687.50        98.974    
     1    690.00        98.986    
     1    692.50        98.998    
     1    695.00        99.009    
     1    697.50        99.021    
     1    700.00        99.032    
     1    702.50        99.043    
     1    705.00        99.054    
     1    707.50        99.065    
     1    710.00        99.076    
     1    712.50        99.087    
     1    715.00        99.098    
     1    717.50        99.109    
     1    720.00        99.119    
     1    722.50        99.130    
     1    725.00        99.140    
     1    727.50        99.150    
     1    730.00        99.160    
     1    732.50        99.170    
     1    735.00        99.180    
     1    737.50        99.190    
     1    740.00        99.200    
     1    742.50        99.210    
     1    745.00        99.219    
     1    747.50        99.229    
     1    750.00        99.238    
     1    752.50        99.248    
     1    755.00        99.257    
     1    757.50        99.266    
     1    760.00        99.275    
     1    762.50        99.284    
     1    765.00        99.293    
     1    767.50        99.302    
     1    770.00        99.311    
     1    772.50        99.320    
     1    775.00        99.328    
     1    777.50        99.337    
     1    780.00        99.345    
     1    782.50        99.354    
     1    785.00        99.362    
     1    787.50        99.370    
     1    790.00        99.378    
     1    792.50        99.386    
     1    795.00        99.394    
     1    797.50        99.402    
     1    800.00        99.410    
     1    802.50        99.418    
     1    805.00        99.426    
     1    807.50        99.433    
     1    810.00        99.441    
     1    812.50        99.448    
     1    815.00        99.456    
     1    817.50        99.463    
     1    820.00        99.471    
     1    822.50        99.478    
     1    825.00        99.485    
     1    827.50        99.492    
     1    830.00        99.499    
     1    832.50        99.506    
     1    835.00        99.513    
     1    837.50        99.520    
     1    840.00        99.527    
     1    842.50        99.533    
     1    845.00        99.540    
     1    847.50        99.547    
     1    850.00        99.553    
     1    852.50        99.560    
     1    855.00        99.566    
     1    857.50        99.573    
     1    860.00        99.579    
     1    862.50        99.585    
     1    865.00        99.591    
     1    867.50        99.597    
     1    870.00        99.603    
     1    872.50        99.609    
     1    875.00        99.615    
     1    877.50        99.621    
     1    880.00        99.627    
     1    882.50        99.633    
     1    885.00        99.639    
     1    887.50        99.644    
     1    890.00        99.650    
     1    892.50        99.656    
     1    895.00        99.661    
     1    897.50        99.667    
     1    900.00        99.672    
     1    902.50        99.678    
     1    905.00        99.683    
     1    907.50        99.688    
     1    910.00        99.693    
     1    912.50        99.699    
     1    915.00        99.692    
     1    917.50        99.684    
     1    920.00        99.677    
     1    922.50        99.668    
     1    925.00        99.659    
     1    927.50        99.649    
     1    930.00        99.639    
     1    932.50        99.628    
     1    935.00        99.617    
     1    937.50        99.605    
     1    940.00        99.592    
     1    942.50        99.579    
     1    945.00        99.565    
     1    947.50        99.551    
     1    950.00        99.536    
     1    952.50        99.520    
     1    955.00        99.503    
     1    957.50        99.486    
     1    960.00        99.469    
     1    962.50        99.450    
     1    965.00        99.431    
     1    967.50        99.412    
     1    970.00        99.391    
     1    972.50        99.370    
     1    975.00        99.349    
     1    977.50        99.326    
     1    980.00        99.303    
     1    982.50        99.279    
     1    985.00        99.255    
     1    987.50        99.230    
     1    990.00        99.204    
     1    992.50        99.177    
     1    995.00        99.150    
     1    997.50        99.122    
     1    1000.0        99.093    
     1    1002.5        99.064    
     1    1005.0        99.033    
     1    1007.5        99.002    
     1    1010.0        98.971    
     1    1012.5        98.938    
     1    1015.0        98.905    
     1    1017.5        98.871    
     1    1020.0        98.836    
     1    1022.5        98.801    
     1    1025.0        98.765    
     1    1027.5        98.728    
     1    1030.0        98.690    
     1    1032.5        98.652    
     1    1035.0        98.612    
     1    1037.5        98.572    
     1    1040.0        98.531    
     1    1042.5        98.490    
     1    1045.0        98.447    
     1    1047.5        98.403    
     1    1050.0        98.353    
     1    1052.5        98.297    
     1    1055.0        98.236    
     1    1057.5        98.169    
     1    1060.0        98.097    
     1    1062.5        98.019    
     1    1065.0        97.937    
     1    1067.5        97.850    
     1    1070.0        97.758    
     1    1072.5        97.661    
     1    1075.0        97.560    
     1    1077.5        97.455    
     1    1080.0        97.345    
     1    1082.5        97.231    
     1    1085.0        97.113    
     1    1087.5        96.991    
     1    1090.0        96.866    
     1    1092.5        96.737    
     1    1095.0        96.604    
     1    1097.5        96.468    
     1    1100.0        96.328    
     1    1102.5        96.185    
     1    1105.0        96.039    
     1    1107.5        95.890    
     1    1110.0        95.737    
     1    1112.5        95.582    
     1    1115.0        95.424    
     1    1117.5        95.264    
     1    1120.0        95.100    
     1    1122.5        94.934    
     1    1125.0        94.766    
     1    1127.5        94.595    
     1    1130.0        94.422    
     1    1132.5        94.246    
     1    1135.0        94.069    
     1    1137.5        93.889    
     1    1140.0        93.707    
     1    1142.5        93.523    
     1    1145.0        93.337    
     1    1147.5        93.149    
     1    1150.0        92.960    
     1    1152.5        92.768    
     1    1155.0        92.575    
     1    1157.5        92.381    
     1    1160.0        92.184    
     1    1162.5        91.986    
     1    1165.0        91.787    
     1    1167.5        91.586    
     1    1170.0        91.384    
     1    1172.5        91.181    
     1    1175.0        90.976    
     1    1177.5        90.770    
     1    1180.0        90.563    
     1    1182.5        90.354    
     1    1185.0        90.145    
     1    1187.5        89.934    
     1    1190.0        89.723    
     1    1192.5        89.510    
     1    1195.0        89.296    
     1    1197.5        89.082    
     1    1200.0        88.867    
     1    1202.5        88.650    
     1    1205.0        88.434    
     1    1207.5        88.216    
     1    1210.0        87.997    
     1    1212.5        87.778    
     1    1215.0        87.558    
     1    1217.5        87.338    
     1    1220.0        87.117    
     1    1222.5        86.895    
     1    1225.0        86.673    
     1    1227.5        86.450    
     1    1230.0        86.227    
     1    1232.5        86.003    
     1    1235.0        85.779    
     1    1237.5        85.554    
     1    1240.0        85.329    
     1    1242.5        85.104    
     1    1245.0        84.878    
     1    1247.5        84.652    
     1    1250.0        84.426    
     1    1252.5        84.199    
     1    1255.0        83.972    
     1    1257.5        83.745    
     1    1260.0        83.518    
     1    1262.5        83.290    
     1    1265.0        83.062    
     1    1267.5        82.834    
     1    1270.0        82.606    
     1    1272.5        82.378    
     1    1275.0        82.150    
     1    1277.5        81.921    
     1    1280.0        81.693    
     1    1282.5        81.464    
     1    1285.0        81.236    
     1    1287.5        81.007    
     1    1290.0        80.779    
     1    1292.5        80.550    
     1    1295.0        80.322    
     1    1297.5        80.093    
     1    1300.0        79.865    
     1    1302.5        79.636    
     1    1305.0        79.408    
     1    1307.5        79.180    
     1    1310.0        78.951    
     1    1312.5        78.723    
     1    1315.0        78.495    
     1    1317.5        78.267    
     1    1320.0        78.040    
     1    1322.5        77.812    
     1    1325.0        77.585    
     1    1327.5        77.357    
     1    1330.0        77.130    
     1    1332.5        76.904    
     1    1335.0        76.677    
     1    1337.5        76.450    
     1    1340.0        76.224    
     1    1342.5        75.998    
     1    1345.0        75.772    
     1    1347.5        75.547    
     1    1350.0        75.321    
     1    1352.5        75.096    
     1    1355.0        74.872    
     1    1357.5        74.647    
     1    1360.0        74.423    
     1    1362.5        74.199    
     1    1365.0        73.975    
     1    1367.5        73.752    
     1    1370.0        73.529    
     1    1372.5        73.306    
     1    1375.0        73.084    
     1    1377.5        72.861    
     1    1380.0        72.640    
     1    1382.5        72.418    
     1    1385.0        72.197    
     1    1387.5        71.976    
     1    1390.0        71.756    
     1    1392.5        71.536    
     1    1395.0        71.316    
     1    1397.5        71.097    
     1    1400.0        70.878    
     1    1402.5        70.659    
     1    1405.0        70.441    
     1    1407.5        70.223    
     1    1410.0        70.006    
     1    1412.5        69.788    
     1    1415.0        69.572    
     1    1417.5        69.355    
     1    1420.0        69.140    
     1    1422.5        68.924    
     1    1425.0        68.709    
     1    1427.5        68.494    
     1    1430.0        68.280    
     1    1432.5        68.066    
     1    1435.0        67.853    
     1    1437.5        67.640    
     1    1440.0        67.427    
     1    1442.5        67.215    
     1    1445.0        67.003    
     1    1447.5        66.792    
     1    1450.0        66.581    
     1    1452.5        66.371    
     1    1455.0        66.161    
     1    1457.5        65.951    
     1    1460.0        65.742    
     1    1462.5        65.533    
     1    1465.0        65.325    
     1    1467.5        65.117    
     1    1470.0        64.910    
     1    1472.5        64.703    
     1    1475.0        64.497    
     1    1477.5        64.291    
     1    1480.0        64.085    
     1    1482.5        63.880    
     1    1485.0        63.675    
     1    1487.5        63.471    
     1    1490.0        63.268    
     1    1492.5        63.064    
     1    1495.0        62.862    
     1    1497.5        62.659    
     1    1500.0        62.458    
     1    1502.5        62.256    
     1    1505.0        62.055    
     1    1507.5        61.855    
     1    1510.0        61.655    
     1    1512.5        61.455    
     1    1515.0        61.256    
     1    1517.5        61.058    
     1    1520.0        60.860    
     1    1522.5        60.662    
     1    1525.0        60.465    
     1    1527.5        60.269    
     1    1530.0        60.072    
     1    1532.5        59.877    
     1    1535.0        59.681    
     1    1537.5        59.487    
     1    1540.0        59.293    
     1    1542.5        59.099    
     1    1545.0        58.905    
     1    1547.5        58.713    
     1    1550.0        58.520    
     1    1552.5        58.328    
     1    1555.0        58.137    
     1    1557.5        57.946    
     1    1560.0        57.756    
     1    1562.5        57.566    
     1    1565.0        57.376    
     1    1567.5        57.188    
     1    1570.0        56.999    
     1    1572.5        56.811    
     1    1575.0        56.624    
     1    1577.5        56.437    
     1    1580.0        56.250    
     1    1582.5        56.064    
     1    1585.0        55.878    
     1    1587.5        55.693    
     1    1590.0        55.509    
     1    1592.5        55.324    
     1    1595.0        55.141    
     1    1597.5        54.958    
     1    1600.0        54.775    
     1    1602.5        54.593    
     1    1605.0        54.411    
     1    1607.5        54.230    
     1    1610.0        54.049    
     1    1612.5        53.869    
     1    1615.0        53.689    
     1    1617.5        53.510    
     1    1620.0        53.331    
     1    1622.5        53.152    
     1    1625.0        52.974    
     1    1627.5        52.797    
     1    1630.0        52.620    
     1    1632.5        52.444    
     1    1635.0        52.268    
     1    1637.5        52.092    
     1    1640.0        51.917    
     1    1642.5        51.742    
     1    1645.0        51.568    
     1    1647.5        51.395    
     1    1650.0        51.221    
     1    1652.5        51.049    
     1    1655.0        50.876    
     1    1657.5        50.705    
     1    1660.0        50.533    
     1    1662.5        50.363    
     1    1665.0        50.192    
     1    1667.5        50.022    
     1    1670.0        49.853    
     1    1672.5        49.684    
     1    1675.0        49.515    
     1    1677.5        49.347    
     1    1680.0        49.180    
     1    1682.5        49.013    
     1    1685.0        48.846    
     1    1687.5        48.680    
     1    1690.0        48.514    
     1    1692.5        48.349    
     1    1695.0        48.184    
     1    1697.5        48.020    
     1    1700.0        47.856    
     1    1702.5        47.692    
     1    1705.0        47.529    
     1    1707.5        47.367    
     1    1710.0        47.205    
     1    1712.5        47.043    
     1    1715.0        46.882    
     1    1717.5        46.721    
     1    1720.0        46.561    
     1    1722.5        46.401    
     1    1725.0        46.242    
     1    1727.5        46.083    
     1    1730.0        45.924    
     1    1732.5        45.766    
     1    1735.0        45.609    
     1    1737.5        45.452    
     1    1740.0        45.295    
     1    1742.5        45.139    
     1    1745.0        44.983    
     1    1747.5        44.827    
     1    1750.0        44.672    
     1    1752.5        44.518    
     1    1755.0        44.364    
     1    1757.5        44.210    
     1    1760.0        44.057    
     1    1762.5        43.904    
     1    1765.0        43.752    
     1    1767.5        43.600    
     1    1770.0        43.449    
     1    1772.5        43.298    
     1    1775.0        43.147    
     1    1777.5        42.997    
     1    1780.0        42.847    
     1    1782.5        42.698    
     1    1785.0        42.549    
     1    1787.5        42.400    
     1    1790.0        42.252    
     1    1792.5        42.105    
     1    1795.0        41.958    
     1    1797.5        41.811    
     1    1800.0        41.665    
     1    1802.5        41.519    
     1    1805.0        41.373    
     1    1807.5        41.228    
     1    1810.0        41.083    
     1    1812.5        40.939    
     1    1815.0        40.795    
     1    1817.5        40.652    
     1    1820.0        40.509    
     1    1822.5        40.366    
     1    1825.0        40.224    
     1    1827.5        40.082    
     1    1830.0        39.941    
     1    1832.5        39.800    
     1    1835.0        39.660    
     1    1837.5        39.519    
     1    1840.0        39.380    
     1    1842.5        39.240    
     1    1845.0        39.101    
     1    1847.5        38.963    
     1    1850.0        38.825    
     1    1852.5        38.687    
     1    1855.0        38.550    
     1    1857.5        38.413    
     1    1860.0        38.277    
     1    1862.5        38.140    
     1    1865.0        38.005    
     1    1867.5        37.870    
     1    1870.0        37.735    
     1    1872.5        37.600    
     1    1875.0        37.466    
     1    1877.5        37.332    
     1    1880.0        37.199    
     1    1882.5        37.066    
     1    1885.0        36.934    
     1    1887.5        36.801    
     1    1890.0        36.670    
     1    1892.5        36.538    
     1    1895.0        36.407    
     1    1897.5        36.277    
     1    1900.0        36.147    
     1    1902.5        36.017    
     1    1905.0        35.887    
     1    1907.5        35.758    
     1    1910.0        35.630    
     1    1912.5        35.501    
     1    1915.0        35.374    
     1    1917.5        35.246    
     1    1920.0        35.119    
     1    1922.5        34.992    
     1    1925.0        34.866    
     1    1927.5        34.740    
     1    1930.0        34.614    
     1    1932.5        34.489    
     1    1935.0        34.364    
     1    1937.5        34.239    
     1    1940.0        34.115    
     1    1942.5        33.992    
     1    1945.0        33.868    
     1    1947.5        33.745    
     1    1950.0        33.623    
     1    1952.5        33.500    
     1    1955.0        33.378    
     1    1957.5        33.257    
     1    1960.0        33.136    
     1    1962.5        33.015    
     1    1965.0        32.894    
     1    1967.5        32.774    
     1    1970.0        32.655    
     1    1972.5        32.535    
     1    1975.0        32.416    
     1    1977.5        32.298    
     1    1980.0        32.179    
     1    1982.5        32.062    
     1    1985.0        31.944    
     1    1987.5        31.827    
     1    1990.0        31.710    
     1    1992.5        31.593    
     1    1995.0        31.477    
     1    1997.5        31.362    
     1    2000.0        31.246    
     1    2002.5        31.131    
     1    2005.0        31.016    
     1    2007.5        30.902    
     1    2010.0        30.788    
     1    2012.5        30.675    
     1    2015.0        30.562    
     1    2017.5        30.449    
     1    2020.0        30.336    
     1    2022.5        30.224    
     1    2025.0        30.113    
     1    2027.5        30.001    
     1    2030.0        29.890    
     1    2032.5        29.779    
     1    2035.0        29.669    
     1    2037.5        29.559    
     1    2040.0        29.450    
     1    2042.5        29.340    
     1    2045.0        29.231    
     1    2047.5        29.123    
     1    2050.0        29.014    
     1    2052.5        28.906    
     1    2055.0        28.799    
     1    2057.5        28.692    
     1    2060.0        28.585    
     1    2062.5        28.478    
     1    2065.0        28.372    
     1    2067.5        28.266    
     1    2070.0        28.160    
     1    2072.5        28.055    
     1    2075.0        27.950    
     1    2077.5        27.845    
     1    2080.0        27.740    
     1    2082.5        27.636    
     1    2085.0        27.533    
     1    2087.5        27.429    
     1    2090.0        27.326    
     1    2092.5        27.223    
     1    2095.0        27.121    
     1    2097.5        27.018    
     1    2100.0        26.917    
     1    2102.5        26.815    
     1    2105.0        26.714    
     1    2107.5        26.613    
     1    2110.0        26.512    
     1    2112.5        26.412    
     1    2115.0        26.312    
     1    2117.5        26.212    
     1    2120.0        26.112    
     1    2122.5        26.013    
     1    2125.0        25.914    
     1    2127.5        25.816    
     1    2130.0        25.717    
     1    2132.5        25.619    
     1    2135.0        25.522    
     1    2137.5        25.424    
     1    2140.0        25.327    
     1    2142.5        25.230    
     1    2145.0        25.134    
     1    2147.5        25.038    
     1    2150.0        24.942    
     1    2152.5        24.846    
     1    2155.0        24.751    
     1    2157.5        24.655    
     1    2160.0        24.561    
     1    2162.5        24.466    
     1    2165.0        24.372    
     1    2167.5        24.278    
     1    2170.0        24.184    
     1    2172.5        24.091    
     1    2175.0        23.998    
     1    2177.5        23.905    
     1    2180.0        23.813    
     1    2182.5        23.720    
     1    2185.0        23.628    
     1    2187.5        23.537    
     1    2190.0        23.445    
     1    2192.5        23.354    
     1    2195.0        23.263    
     1    2197.5        23.173    
     1    2200.0        23.083    
     1    2202.5        22.993    
     1    2205.0        22.903    
     1    2207.5        22.813    
     1    2210.0        22.724    
     1    2212.5        22.635    
     1    2215.0        22.547    
     1    2217.5        22.458    
     1    2220.0        22.370    
     1    2222.5        22.282    
     1    2225.0        22.195    
     1    2227.5        22.108    
     1    2230.0        22.021    
     1    2232.5        21.934    
     1    2235.0        21.848    
     1    2237.5        21.761    
     1    2240.0        21.675    
     1    2242.5        21.590    
     1    2245.0        21.504    
     1    2247.5        21.419    
     1    2250.0        21.335    
     1    2252.5        21.250    
     1    2255.0        21.166    
     1    2257.5        21.082    
     1    2260.0        20.998    
     1    2262.5        20.915    
     1    2265.0        20.831    
     1    2267.5        20.748    
     1    2270.0        20.666    
     1    2272.5        20.583    
     1    2275.0        20.501    
     1    2277.5        20.419    
     1    2280.0        20.338    
     1    2282.5        20.256    
     1    2285.0        20.175    
     1    2287.5        20.094    
     1    2290.0        20.014    
     1    2292.5        19.933    
     1    2295.0        19.853    
     1    2297.5        19.774    
     1    2300.0        19.694    
     1    2302.5        19.615    
     1    2305.0        19.536    
     1    2307.5        19.457    
     1    2310.0        19.378    
     1    2312.5        19.300    
     1    2315.0        19.222    
     1    2317.5        19.144    
     1    2320.0        19.067    
     1    2322.5        18.990    
     1    2325.0        18.913    
     1    2327.5        18.836    
     1    2330.0        18.760    
     1    2332.5        18.683    
     1    2335.0        18.607    
     1    2337.5        18.532    
     1    2340.0        18.456    
     1    2342.5        18.381    
     1    2345.0        18.306    
     1    2347.5        18.231    
     1    2350.0        18.157    
     1    2352.5        18.083    
     1    2355.0        18.009    
     1    2357.5        17.935    
     1    2360.0        17.862    
     1    2362.5        17.788    
     1    2365.0        17.716    
     1    2367.5        17.643    
     1    2370.0        17.570    
     1    2372.5        17.498    
     1    2375.0        17.426    
     1    2377.5        17.354    
     1    2380.0        17.283    
     1    2382.5        17.212    
     1    2385.0        17.141    
     1    2387.5        17.070    
     1    2390.0        16.999    
     1    2392.5        16.929    
     1    2395.0        16.859    
     1    2397.5        16.789    
     1    2400.0        16.720    
     1    2402.5        16.651    
     1    2405.0        16.581    
     1    2407.5        16.513    
     1    2410.0        16.444    
     1    2412.5        16.376    
     1    2415.0        16.307    
     1    2417.5        16.240    
     1    2420.0        16.172    
     1    2422.5        16.104    
     1    2425.0        16.037    
     1    2427.5        15.970    
     1    2430.0        15.903    
     1    2432.5        15.837    
     1    2435.0        15.770    
     1    2437.5        15.704    
     1    2440.0        15.639    
     1    2442.5        15.573    
     1    2445.0        15.507    
     1    2447.5        15.442    
     1    2450.0        15.377    
     1    2452.5        15.313    
     1    2455.0        15.248    
     1    2457.5        15.184    
     1    2460.0        15.120    
     1    2462.5        15.056    
     1    2465.0        14.992    
     1    2467.5        14.929    
     1    2470.0        14.865    
     1    2472.5        14.802    
     1    2475.0        14.740    
     1    2477.5        14.677    
     1    2480.0        14.615    
     1    2482.5        14.553    
     1    2485.0        14.491    
     1    2487.5        14.429    
     1    2490.0        14.367    
     1    2492.5        14.306    
     1    2495.0        14.245    
     1    2497.5        14.184    
     1    2500.0        14.124    
     1    2502.5        14.063    
     1    2505.0        14.003    
     1    2507.5        13.943    
     1    2510.0        13.883    
     1    2512.5        13.824    
     1    2515.0        13.764    
     1    2517.5        13.705    
     1    2520.0        13.646    
     1    2522.5        13.587    
     1    2525.0        13.529    
     1    2527.5        13.470    
     1    2530.0        13.412    
     1    2532.5        13.354    
     1    2535.0        13.296    
     1    2537.5        13.239    
     1    2540.0        13.182    
     1    2542.5        13.124    
     1    2545.0        13.067    
     1    2547.5        13.011    
     1    2550.0        12.954    
     1    2552.5        12.898    
     1    2555.0        12.842    
     1    2557.5        12.786    
     1    2560.0        12.730    
     1    2562.5        12.674    
     1    2565.0        12.619    
     1    2567.5        12.564    
     1    2570.0        12.509    
     1    2572.5        12.454    
     1    2575.0        12.400    
     1    2577.5        12.345    
     1    2580.0        12.291    
     1    2582.5        12.237    
     1    2585.0        12.183    
     1    2587.5        12.130    
     1    2590.0        12.076    
     1    2592.5        12.023    
     1    2595.0        11.970    
     1    2597.5        11.917    
     1    2600.0        11.865    
     1    2602.5        11.812    
     1    2605.0        11.760    
     1    2607.5        11.708    
     1    2610.0        11.656    
     1    2612.5        11.605    
     1    2615.0        11.553    
     1    2617.5        11.502    
     1    2620.0        11.451    
     1    2622.5        11.400    
     1    2625.0        11.349    
     1    2627.5        11.299    
     1    2630.0        11.248    
     1    2632.5        11.198    
     1    2635.0        11.148    
     1    2637.5        11.098    
     1    2640.0        11.049    
     1    2642.5        10.999    
     1    2645.0        10.950    
     1    2647.5        10.901    
     1    2650.0        10.852    
     1    2652.5        10.803    
     1    2655.0        10.755    
     1    2657.5        10.706    
     1    2660.0        10.658    
     1    2662.5        10.610    
     1    2665.0        10.562    
     1    2667.5        10.515    
     1    2670.0        10.467    
     1    2672.5        10.420    
     1    2675.0        10.373    
     1    2677.5        10.326    
     1    2680.0        10.279    
     1    2682.5        10.233    
     1    2685.0        10.186    
     1    2687.5        10.140    
     1    2690.0        10.094    
     1    2692.5        10.048    
     1    2695.0        10.003    
     1    2697.5        9.9572    
     1    2700.0        9.9118    
     1    2702.5        9.8667    
     1    2705.0        9.8217    
     1    2707.5        9.7769    
     1    2710.0        9.7322    
     1    2712.5        9.6877    
     1    2715.0        9.6435    
     1    2717.5        9.5993    
     1    2720.0        9.5554    
     1    2722.5        9.5116    
     1    2725.0        9.4679    
     1    2727.5        9.4245    
     1    2730.0        9.3812    
     1    2732.5        9.3381    
     1    2735.0        9.2951    
     1    2737.5        9.2524    
     1    2740.0        9.2097    
     1    2742.5        9.1673    
     1    2745.0        9.1250    
     1    2747.5        9.0829    
     1    2750.0        9.0409    
     1    2752.5        8.9991    
     1    2755.0        8.9575    
     1    2757.5        8.9160    
     1    2760.0        8.8747    
     1    2762.5        8.8336    
     1    2765.0        8.7926    
     1    2767.5        8.7518    
     1    2770.0        8.7112    
     1    2772.5        8.6707    
     1    2775.0        8.6303    
     1    2777.5        8.5901    
     1    2780.0        8.5501    
     1    2782.5        8.5103    
     1    2785.0        8.4706    
     1    2787.5        8.4310    
     1    2790.0        8.3916    
     1    2792.5        8.3524    
     1    2795.0        8.3133    
     1    2797.5        8.2744    
     1    2800.0        8.2357    
     1    2802.5        8.1971    
     1    2805.0        8.1586    
     1    2807.5        8.1203    
     1    2810.0        8.0822    
     1    2812.5        8.0442    
     1    2815.0        8.0064    
     1    2817.5        7.9687    
     1    2820.0        7.9311    
     1    2822.5        7.8938    
     1    2825.0        7.8565    
     1    2827.5        7.8194    
     1    2830.0        7.7825    
     1    2832.5        7.7457    
     1    2835.0        7.7091    
     1    2837.5        7.6726    
     1    2840.0        7.6363    
     1    2842.5        7.6001    
     1    2845.0        7.5641    
     1    2847.5        7.5282    
     1    2850.0        7.4924    
     1    2852.5        7.4569    
     1    2855.0        7.4214    
     1    2857.5        7.3861    
     1    2860.0        7.3509    
     1    2862.5        7.3159    
     1    2865.0        7.2810    
     1    2867.5        7.2463    
     1    2870.0        7.2117    
     1    2872.5        7.1773    
     1    2875.0        7.1430    
     1    2877.5        7.1088    
     1    2880.0        7.0748    
     1    2882.5        7.0409    
     1    2885.0        7.0072    
     1    2887.5        6.9736    
     1    2890.0        6.9401    
     1    2892.5        6.9068    
     1    2895.0        6.8736    
     1    2897.5        6.8406    
     1    2900.0        6.8077    
     1    2902.5        6.7749    
     1    2905.0        6.7423    
     1    2907.5        6.7098    
     1    2910.0        6.6775    
     1    2912.5        6.6452    
     1    2915.0        6.6132    
     1    2917.5        6.5812    
     1    2920.0        6.5494    
     1    2922.5        6.5177    
     1    2925.0        6.4862    
     1    2927.5        6.4547    
     1    2930.0        6.4235    
     1    2932.5        6.3923    
     1    2935.0        6.3613    
     1    2937.5        6.3304    
     1    2940.0        6.2996    
     1    2942.5        6.2690    
     1    2945.0        6.2385    
     1    2947.5        6.2082    
     1    2950.0        6.1779    
     1    2952.5        6.1478    
     1    2955.0        6.1178    
     1    2957.5        6.0880    
     1    2960.0        6.0583    
     1    2962.5        6.0287    
     1    2965.0        5.9992    
     1    2967.5        5.9698    
     1    2970.0        5.9406    
     1    2972.5        5.9115    
     1    2975.0        5.8826    
     1    2977.5        5.8537    
     1    2980.0        5.8250    
     1    2982.5        5.7964    
     1    2985.0        5.7679    
     1    2987.5        5.7396    
     1    2990.0        5.7114    
     1    2992.5        5.6833    
     1    2995.0        5.6553    
     1    2997.5        5.6274    
     1    3000.0        5.5997    
     1    3002.5        5.5720    
     1    3005.0        5.5445    
     1    3007.5        5.5172    
     1    3010.0        5.4899    
     1    3012.5        5.4628    
     1    3015.0        5.4357    
     1    3017.5        5.4088    
     1    3020.0        5.3821    
     1    3022.5        5.3554    
     1    3025.0        5.3289    
     1    3027.5        5.3025    
     1    3030.0        5.2762    
     1    3032.5        5.2500    
     1    3035.0        5.2240    
     1    3037.5        5.1981    
     1    3040.0        5.1723    
     1    3042.5        5.1466    
     1    3045.0        5.1211    
     1    3047.5        5.0956    
     1    3050.0        5.0703    
     1    3052.5        5.0452    
     1    3055.0        5.0201    
     1    3057.5        4.9952    
     1    3060.0        4.9704    
     1    3062.5        4.9457    
     1    3065.0        4.9211    
     1    3067.5        4.8967    
     1    3070.0        4.8724    
     1    3072.5        4.8482    
     1    3075.0        4.8241    
     1    3077.5        4.8001    
     1    3080.0        4.7763    
     1    3082.5        4.7526    
     1    3085.0        4.7290    
     1    3087.5        4.7055    
     1    3090.0        4.6822    
     1    3092.5        4.6589    
     1    3095.0        4.6358    
     1    3097.5        4.6128    
     1    3100.0        4.5900    
     1    3102.5        4.5672    
     1    3105.0        4.5446    
     1    3107.5        4.5221    
     1    3110.0        4.4997    
     1    3112.5        4.4774    
     1    3115.0        4.4552    
     1    3117.5        4.4331    
     1    3120.0        4.4112    
     1    3122.5        4.3894    
     1    3125.0        4.3676    
     1    3127.5        4.3460    
     1    3130.0        4.3246    
     1    3132.5        4.3032    
     1    3135.0        4.2819    
     1    3137.5        4.2608    
     1    3140.0        4.2397    
     1    3142.5        4.2188    
     1    3145.0        4.1980    
     1    3147.5        4.1773    
     1    3150.0        4.1567    
     1    3152.5        4.1362    
     1    3155.0        4.1158    
     1    3157.5        4.0955    
     1    3160.0        4.0753    
     1    3162.5        4.0553    
     1    3165.0        4.0353    
     1    3167.5        4.0154    
     1    3170.0        3.9957    
     1    3172.5        3.9760    
     1    3175.0        3.9565    
     1    3177.5        3.9370    
     1    3180.0        3.9177    
     1    3182.5        3.8985    
     1    3185.0        3.8793    
     1    3187.5        3.8603    
     1    3190.0        3.8414    
     1    3192.5        3.8225    
     1    3195.0        3.8038    
     1    3197.5        3.7851    
     1    3200.0        3.7666    
     1    3202.5        3.7481    
     1    3205.0        3.7298    
     1    3207.5        3.7115    
     1    3210.0        3.6934    
     1    3212.5        3.6753    
     1    3215.0        3.6573    
     1    3217.5        3.6395    
     1    3220.0        3.6217    
     1    3222.5        3.6040    
     1    3225.0        3.5864    
     1    3227.5        3.5689    
     1    3230.0        3.5515    
     1    3232.5        3.5341    
     1    3235.0        3.5169    
     1    3237.5        3.4997    
     1    3240.0        3.4827    
     1    3242.5        3.4657    
     1    3245.0        3.4488    
     1    3247.5        3.4320    
     1    3250.0        3.4153    
     1    3252.5        3.3987    
     1    3255.0        3.3822    
     1    3257.5        3.3657    
     1    3260.0        3.3493    
     1    3262.5        3.3331    
     1    3265.0        3.3169    
     1    3267.5        3.3007    
     1    3270.0        3.2847    
     1    3272.5        3.2688    
     1    3275.0        3.2529    
     1    3277.5        3.2371    
     1    3280.0        3.2214    
     1    3282.5        3.2057    
     1    3285.0        3.1902    
     1    3287.5        3.1747    
     1    3290.0        3.1593    
     1    3292.5        3.1440    
     1    3295.0        3.1288    
     1    3297.5        3.1136    
     1    3300.0        3.0985    
     1    3302.5        3.0835    
     1    3305.0        3.0686    
     1    3307.5        3.0537    
     1    3310.0        3.0389    
     1    3312.5        3.0242    
     1    3315.0        3.0096    
     1    3317.5        2.9950    
     1    3320.0        2.9805    
     1    3322.5        2.9661    
     1    3325.0        2.9518    
     1    3327.5        2.9375    
     1    3330.0        2.9233    
     1    3332.5        2.9092    
     1    3335.0        2.8951    
     1    3337.5        2.8811    
     1    3340.0        2.8672    
     1    3342.5        2.8533    
     1    3345.0        2.8395    
     1    3347.5        2.8258    
     1    3350.0        2.8122    
     1    3352.5        2.7986    
     1    3355.0        2.7851    
     1    3357.5        2.7716    
     1    3360.0        2.7582    
     1    3362.5        2.7449    
     1    3365.0        2.7316    
     1    3367.5        2.7184    
     1    3370.0        2.7051    
     1    3372.5        2.6919    
     1    3375.0        2.6786    
     1    3377.5        2.6654    
     1    3380.0        2.6521    
     1    3382.5        2.6389    
     1    3385.0        2.6256    
     1    3387.5        2.6124    
     1    3390.0        2.5992    
     1    3392.5        2.5860    
     1    3395.0        2.5728    
     1    3397.5        2.5596    
     1    3400.0        2.5465    
     1    3402.5        2.5333    
     1    3405.0        2.5202    
     1    3407.5        2.5071    
     1    3410.0        2.4941    
     1    3412.5        2.4810    
     1    3415.0        2.4680    
     1    3417.5        2.4550    
     1    3420.0        2.4421    
     1    3422.5        2.4291    
     1    3425.0        2.4163    
     1    3427.5        2.4034    
     1    3430.0        2.3906    
     1    3432.5        2.3778    
     1    3435.0        2.3651    
     1    3437.5        2.3524    
     1    3440.0        2.3397    
     1    3442.5        2.3271    
     1    3445.0        2.3145    
     1    3447.5        2.3019    
     1    3450.0        2.2894    
     1    3452.5        2.2770    
     1    3455.0        2.2646    
     1    3457.5        2.2522    
     1    3460.0        2.2399    
     1    3462.5        2.2276    
     1    3465.0        2.2154    
     1    3467.5        2.2032    
     1    3470.0        2.1911    
     1    3472.5        2.1790    
     1    3475.0        2.1669    
     1    3477.5        2.1550    
     1    3480.0        2.1430    
     1    3482.5        2.1311    
     1    3485.0        2.1193    
     1    3487.5        2.1075    
     1    3490.0        2.0958    
     1    3492.5        2.0841    
     1    3495.0        2.0725    
     1    3497.5        2.0609    
     1    3500.0        2.0494    
     1    3502.5        2.0379    
     1    3505.0        2.0265    
     1    3507.5        2.0151    
     1    3510.0        2.0038    
     1    3512.5        1.9926    
     1    3515.0        1.9814    
     1    3517.5        1.9702    
     1    3520.0        1.9591    
     1    3522.5        1.9481    
     1    3525.0        1.9371    
     1    3527.5        1.9261    
     1    3530.0        1.9153    
     1    3532.5        1.9044    
     1    3535.0        1.8937    
     1    3537.5        1.8830    
     1    3540.0        1.8723    
     1    3542.5        1.8617    
     1    3545.0        1.8511    
     1    3547.5        1.8407    
     1    3550.0        1.8302    
     1    3552.5        1.8198    
     1    3555.0        1.8095    
     1    3557.5        1.7992    
     1    3560.0        1.7890    
     1    3562.5        1.7788    
     1    3565.0        1.7687    
     1    3567.5        1.7586    
     1    3570.0        1.7486    
     1    3572.5        1.7387    
     1    3575.0        1.7288    
     1    3577.5        1.7190    
     1    3580.0        1.7092    
     1    3582.5        1.6994    
     1    3585.0        1.6897    
     1    3587.5        1.6801    
     1    3590.0        1.6705    
     1    3592.5        1.6610    
     1    3595.0        1.6515    
     1    3597.5        1.6421    
     1    3600.0        1.6328    
     1    3602.5        1.6234    
     1    3605.0        1.6142    
     1    3607.5        1.6050    
     1    3610.0        1.5958    
     1    3612.5        1.5867    
     1    3615.0        1.5777    
     1    3617.5        1.5687    
     1    3620.0        1.5597    
     1    3622.5        1.5508    
     1    3625.0        1.5420    
     1    3627.5        1.5332    
     1    3630.0        1.5244    
     1    3632.5        1.5157    
     1    3635.0        1.5071    
     1    3637.5        1.4985    
     1    3640.0        1.4899    
     1    3642.5        1.4814    
     1    3645.0        1.4730    
     1    3647.5        1.4646    
     1    3650.0        1.4562    
